acc_x,acc_y,acc_z,gyro_x,gyro_y,gyro_z
-0.037451,0.087779,9.651190,0.062822,-0.028700,-0.009520
0.000595,0.057129,9.948690,-0.043183,0.039630,0.119872
-0.190231,0.061244,9.679772,-0.070473,-0.013846,0.122534
0.060660,0.179597,9.964460,-0.057878,0.022667,0.156773
-0.064204,0.226375,9.973309,0.003129,0.022011,0.214321
-0.197190,0.217366,9.925022,0.077937,-0.002479,0.158561
-0.031047,0.027369,9.923155,-0.036799,0.039079,0.160956
-0.143941,0.180037,9.805185,-0.010103,0.004108,0.231678
0.085865,0.155020,9.727850,0.011193,0.102581,0.282906
0.011870,0.379760,10.084495,-0.017416,0.040613,0.333324
-0.180898,0.325611,9.679616,0.057573,0.006588,0.349775
0.122257,0.203921,9.729043,-0.071349,-0.064789,0.322256
-0.070713,0.336180,9.848784,0.015174,-0.054490,0.481878
0.058044,0.373409,9.650414,0.001210,-0.009767,0.433872
0.087334,0.396523,9.949409,0.024890,-0.032180,0.464182
-0.084929,0.239382,9.805918,0.047534,0.014185,0.530171
0.155514,0.479745,9.786040,0.025657,0.000357,0.590860
-0.104442,0.700141,9.686448,-0.032674,0.082816,0.588326
-0.087047,0.586390,9.587278,0.062241,-0.007555,0.679766
0.152951,0.621666,9.917908,0.029369,0.045874,0.649828
0.066974,0.556205,9.682423,0.043025,0.073858,0.709077
-0.016809,0.487288,9.868339,0.001388,-0.020938,0.741538
0.096814,0.810311,9.854612,0.068457,-0.040169,0.753682
0.110949,0.626213,9.752607,0.064436,0.024982,0.912153
0.056841,0.644271,9.842302,-0.018018,0.005051,0.836882
-0.127343,0.613629,9.886250,0.005732,-0.070964,0.926679
0.106403,0.629923,9.890474,0.012939,-0.002302,0.919637
-0.063928,0.778959,9.980034,-0.035790,0.029109,0.924379
0.096898,0.901260,10.039055,0.020476,0.082978,1.066615
-0.084466,0.716227,9.723346,-0.060205,-0.021470,1.060023
-0.030540,0.580763,9.785109,-0.002811,-0.055976,1.094549
-0.065348,0.986138,9.852291,-0.000401,0.076573,1.104979
-0.072084,0.991659,9.896792,0.046720,-0.050684,1.109959
-0.092225,0.890477,9.542957,0.028866,0.043349,1.148755
-0.130879,0.889321,9.818900,0.000963,-0.055263,1.215773
-0.113446,0.945580,9.662961,0.033477,-0.017398,1.249031
0.020534,1.087057,9.858284,-0.045192,-0.025934,1.365288
0.001483,0.879819,9.735606,0.002917,-0.040092,1.318344
-0.048877,1.045130,9.818998,-0.063897,-0.040566,1.421320
0.171065,1.219754,9.691499,-0.005699,0.075629,1.399064
0.081408,1.227915,9.713272,-0.001439,0.025636,1.331945
0.101864,1.160611,9.640806,0.008198,-0.001959,1.534262
0.054624,1.234668,9.782680,0.038587,-0.045348,1.560477
-0.004494,1.151120,9.883216,-0.010493,-0.036178,1.554647
-0.005214,1.286161,9.852858,-0.008111,0.061539,1.596359
-0.138550,1.187650,9.544807,0.008226,0.036026,1.662420
0.067769,1.178276,9.825909,0.031344,0.056779,1.679024
0.044519,1.424800,9.665519,0.006706,0.049567,1.687012
-0.007819,1.581729,10.015718,0.001330,0.068863,1.791496
0.118479,1.450571,9.689387,-0.000327,-0.018142,1.821117
0.086235,1.419886,9.877264,0.032017,0.012623,1.785686
-0.075941,1.446874,9.829699,0.013268,-0.000868,1.807959
0.029553,1.555650,9.740497,0.005162,0.010617,1.855488
-0.161194,1.720154,10.108711,0.036153,0.051553,1.945271
0.053690,1.395078,9.717217,-0.011050,0.030233,1.945565
0.061094,1.743668,9.664454,-0.049430,0.026909,1.984263
-0.014920,1.635023,9.913750,0.103742,0.058291,2.042835
-0.041232,1.452630,9.884544,0.009967,0.006549,2.010212
0.134976,1.659154,9.858629,-0.069559,-0.034902,2.084422
-0.056939,1.596349,9.933171,-0.084222,-0.021773,2.112397
0.046500,1.785463,9.990254,-0.008617,-0.026469,2.144613
-0.126581,1.689152,9.828953,0.068956,0.026486,2.171833
-0.067718,1.878149,9.787513,-0.002734,-0.001133,2.199497
-0.119104,1.820842,9.830441,-0.030765,0.040421,2.249396
0.112162,1.888904,9.865338,-0.043788,-0.001726,2.306879
0.038435,1.847917,9.724054,-0.078908,-0.001630,2.372849
0.034661,1.859306,10.012779,0.018049,0.089192,2.424145
0.161062,2.003998,9.855416,0.057957,0.112003,2.440398
-0.010555,1.805500,9.784060,0.006523,0.038950,2.423674
0.012168,2.013146,9.866344,0.004307,-0.025909,2.497934
0.110560,1.931330,9.728031,-0.026076,-0.027477,2.534524
0.174103,2.135683,9.763108,-0.005508,-0.077101,2.495734
-0.012865,2.059617,9.813789,-0.045891,-0.035319,2.606505
0.056722,2.404919,9.832771,0.008758,0.042611,2.656011
0.079512,1.927119,9.751812,0.042876,0.024336,2.670258
0.147458,2.206551,9.283307,0.043974,0.036777,2.712885
0.080883,2.417230,9.570492,0.050843,-0.093832,2.722194
0.182327,1.883193,9.922561,-0.012232,0.046107,2.832640
-0.001038,1.962608,9.863537,-0.058007,0.056447,2.758898
0.138101,2.317048,9.880179,-0.045649,-0.009371,2.828998
-0.049401,2.078792,9.893024,-0.062337,0.025995,2.904874
0.209970,2.466485,9.571455,0.042162,-0.017338,2.912086
-0.181787,2.258196,9.618843,-0.001217,0.067520,2.836271
0.005303,2.435699,9.638370,-0.038278,0.000222,2.942189
0.093255,2.489399,9.744222,-0.010333,-0.005043,2.995275
-0.020703,2.212067,9.770129,0.002579,0.025126,3.048103
0.000886,2.495070,9.855466,-0.018128,-0.006631,3.093228
0.029309,2.471876,9.844344,-0.069613,0.018462,3.111456
0.120244,2.520914,9.848112,0.050461,0.023642,3.212270
-0.022341,2.483540,9.872746,-0.040440,-0.014855,3.151741
-0.066627,2.636266,9.813391,-0.028208,0.050084,3.296910
-0.036472,2.579328,9.749026,-0.045925,-0.018331,3.270333
-0.197496,2.693429,9.837786,0.023424,-0.070392,3.245233
0.101960,2.612484,10.037446,0.019585,-0.077962,3.327452
-0.045568,2.600023,9.690758,0.006484,0.016627,3.375626
-0.208071,2.917728,9.974528,-0.014630,0.033783,3.428674
0.072089,2.655059,10.027352,-0.025881,0.001509,3.468564
-0.042206,2.759084,9.982471,0.068729,0.031453,3.537791
0.079069,3.084276,9.839848,-0.024424,-0.020967,3.515765
-0.047644,2.775504,9.588361,-0.005743,-0.040321,3.611788
-0.033431,3.015049,9.881861,0.035334,-0.012227,3.622791
0.002437,2.787083,9.837225,0.008916,0.028793,3.579321
0.121538,2.986938,9.830009,-0.005826,-0.002322,3.694010
-0.095635,3.068091,9.434172,-0.025138,-0.099997,3.661768
0.045941,3.301244,9.628996,-0.002442,0.002555,3.808357
-0.028964,3.020633,9.754491,0.023310,0.003261,3.775683
0.124365,3.107054,9.828277,0.044167,-0.023604,3.807338
0.095673,3.081147,10.191585,-0.043570,0.056756,3.864621
0.018162,3.131348,9.604744,-0.028301,-0.004578,3.905278
-0.065214,3.274376,9.649746,-0.010029,-0.021379,3.894692
-0.258907,3.169346,9.974490,0.013558,-0.014322,3.938684
0.005086,3.153910,9.586982,-0.053442,0.003106,3.985557
0.054270,3.302375,9.596192,-0.012866,0.007951,4.058697
0.136144,3.343682,9.945878,0.028063,0.022109,4.055121
0.070023,3.359017,9.872487,-0.022680,-0.041757,4.076993
0.104217,3.091102,9.629873,0.000786,-0.031451,4.140533
-0.088321,3.322551,9.856577,-0.038618,-0.066440,4.205438
0.038962,3.500959,9.947820,-0.018977,-0.033481,4.164879
-0.104686,3.424313,9.708261,0.016921,0.054996,4.228481
-0.022590,3.463075,9.400955,-0.008623,0.042865,4.208158
0.289349,3.521206,9.738516,0.078675,0.097764,4.208293
0.231284,3.440323,9.825903,-0.003900,-0.028758,4.341927
-0.058454,3.709030,9.797402,-0.016735,0.032470,4.383986
0.017938,3.684022,9.880218,-0.036436,-0.006887,4.445052
-0.006522,3.701592,10.114618,-0.047349,-0.065849,4.540141
0.038089,3.611133,9.830476,-0.025697,-0.005494,4.480491
0.157252,3.553996,9.776603,0.021924,0.070912,4.555571
-0.184493,3.512612,9.747865,-0.060735,-0.055365,4.552387
-0.006712,3.895743,9.874319,-0.010729,-0.068878,4.637090
-0.109449,3.624872,9.974970,-0.043453,0.059732,4.713113
0.135193,3.744385,9.756897,-0.009930,0.017559,4.626981
0.134992,3.650585,9.857044,0.024947,-0.019928,4.668741
0.272719,3.823204,9.716928,-0.011573,-0.018630,4.735195
0.049244,3.770937,9.642707,0.037987,-0.031412,4.853573
0.084124,3.990255,9.772692,-0.053002,0.064617,4.779483
-0.045268,3.769504,9.792008,-0.000041,-0.019608,4.842366
-0.067484,3.792345,10.037061,0.032054,0.059993,4.939707
0.055979,4.011133,9.916008,-0.016194,0.007370,4.896775
0.092524,3.921650,9.842707,-0.039662,-0.045852,4.946526
-0.032284,4.052616,9.851004,0.009984,-0.076473,4.998146
-0.045919,19.840485,27.827549,0.060641,0.044876,8.976593
-0.024512,16.605772,25.020275,-0.055875,0.018393,7.481980
0.115841,14.470252,22.513222,0.044406,-0.008543,6.448334
-0.064645,11.790128,20.565969,-0.069079,0.036726,5.361445
0.024278,9.937625,18.820492,-0.013242,-0.054794,4.539571
-0.237440,8.556914,17.318693,0.027045,0.071405,3.840909
-0.004159,6.937000,16.137501,-0.023756,-0.040155,3.143952
-0.033551,5.981128,15.251802,0.058929,-0.031127,2.751327
0.172689,5.122968,14.456998,0.021003,0.013196,2.253494
0.173532,4.306012,13.619477,0.026427,-0.000619,1.892173
0.121093,3.695295,13.097709,0.027840,-0.005759,1.573007
-0.174555,2.900730,12.478552,0.023993,-0.002559,1.370324
0.093555,2.523766,12.220119,-0.018154,-0.048365,1.206250
0.157828,2.270136,11.868277,0.061864,0.035351,0.941293
-0.124439,1.847422,11.347651,-0.012013,0.055293,0.791124
-0.197888,1.471606,11.324461,-0.025302,0.074889,0.675839
0.055289,1.509720,10.972093,0.070737,-0.055936,0.591140
0.293736,1.088139,10.772851,0.082843,0.001190,0.469516
-0.153527,1.031150,10.557839,-0.046710,0.043294,0.373242
-0.077646,0.909433,10.629104,-0.003792,-0.049380,0.402334
0.135846,0.592545,10.376291,0.046195,-0.001263,0.240038
-0.007183,0.629186,10.478185,0.061436,-0.014637,0.196670
0.044178,0.687499,10.323124,-0.070485,-0.025839,0.144545
-0.028176,0.478610,10.355962,-0.024913,0.029776,0.155608
0.239795,0.461544,10.100286,0.014228,-0.028933,0.146209
-0.026003,0.337707,10.252598,0.076836,-0.013939,0.136237
0.052052,0.280588,10.019608,-0.062621,0.060804,0.082631
-0.039347,0.170789,9.997473,0.042021,-0.004927,0.110074
0.206172,0.131351,9.960419,0.026840,-0.018098,0.115729
-0.103845,0.220755,10.095284,-0.030359,0.031117,0.045033
0.194940,0.159163,10.000205,0.013982,-0.018480,0.001999
-0.018426,0.265518,9.903600,-0.042988,0.009902,0.001768
0.006992,0.286084,9.854796,-0.021606,-0.002201,0.005360
-0.035298,0.307851,9.940090,-0.024654,-0.005150,-0.040222
0.325266,0.259824,9.518711,0.093829,0.042365,0.010924
-0.114858,0.459350,9.711983,0.046885,-0.079170,-0.102307
0.070950,0.559786,9.602602,-0.015972,-0.055143,-0.009464
-0.083050,0.577245,9.471360,0.008226,0.036817,-0.045531
-0.190106,0.534580,9.273825,0.015985,0.000576,0.013900
0.091693,0.770777,9.416381,-0.020791,0.055325,-0.004140
-0.220759,0.630703,9.357281,0.070967,-0.031616,0.029713
-0.333440,1.023084,8.993539,-0.002387,-0.013110,0.025293
0.101201,0.836895,9.272846,-0.011967,-0.106479,-0.122515
0.384979,0.738141,9.165065,0.050897,0.049210,0.075494
-0.216980,1.129532,8.991447,-0.000701,-0.051705,-0.016783
0.015574,1.036315,9.044566,0.000457,-0.040282,0.065943
-0.173803,1.362111,8.836432,0.089580,0.019131,-0.000435
-0.168323,1.471904,8.812102,-0.051799,0.061857,0.003052
0.228916,1.494472,8.659047,-0.011567,0.019247,-0.023428
-0.010199,1.429831,8.872622,0.005875,-0.057699,0.043483
0.052502,1.503859,8.600121,-0.004176,0.046352,-0.008045
-0.006067,1.706652,8.559193,-0.005448,-0.048493,0.030390
-0.047400,1.549757,8.426938,-0.035034,-0.019457,0.000042
-0.168252,1.594850,8.607841,0.004849,-0.068244,-0.009232
-0.024792,1.836822,8.065222,0.031809,-0.015134,-0.008989
0.068197,1.800327,8.239541,0.006496,-0.005038,-0.041221
0.021715,1.827588,7.977089,-0.001454,0.039763,-0.042047
0.110670,1.983646,8.128922,-0.014979,-0.055265,0.037655
-0.115942,1.845498,8.128104,-0.003694,-0.034008,0.003691
0.193613,2.113658,7.869947,-0.048144,-0.041340,-0.058405
0.027014,2.150275,8.074204,-0.042671,0.054294,-0.029325
0.072808,1.865774,7.970590,0.018649,-0.033452,0.030381
-0.120418,2.120862,7.817185,-0.041043,0.001569,0.002114
0.049317,2.161979,7.858992,0.093112,0.025217,-0.023716
0.091601,2.431902,7.604970,0.027402,0.085527,-0.065185
-0.117525,2.616774,7.462379,-0.033699,-0.009476,-0.016684
0.127736,2.541235,7.566867,-0.013310,-0.052169,0.056158
-0.204971,2.610850,7.586638,-0.056904,-0.008009,0.041833
-0.160369,2.755690,7.458331,-0.001207,-0.039176,-0.053947
-0.077251,2.865811,7.118020,-0.009200,-0.030281,0.008209
0.041602,3.024980,7.489725,-0.056058,0.032521,0.004622
0.046777,2.861843,7.175277,0.007593,0.057643,-0.017512
-0.036351,3.030699,7.089345,-0.029033,-0.021911,-0.007701
0.090891,3.288819,7.113430,-0.003639,-0.033228,-0.080923
-0.161327,2.938867,7.148685,-0.022437,0.014393,0.005450
-0.007170,3.272854,6.926102,0.047982,0.078219,0.030373
0.099675,3.216035,6.836878,0.055301,0.030671,0.068396
-0.048120,3.158782,7.098144,0.074034,0.038047,0.028255
-0.011566,3.447167,6.729637,-0.008209,-0.001653,-0.013513
-0.126231,3.409157,6.860846,0.024850,-0.028814,-0.007644
-0.062488,3.400156,6.682000,-0.094207,0.068924,-0.008819
0.059883,3.769159,6.640435,0.018223,0.058311,0.012012
0.077279,3.725728,6.394264,0.057774,-0.049670,0.095895
-0.115600,3.576744,6.307411,0.043484,0.008368,0.057003
0.095455,3.809015,6.411448,-0.046745,-0.011545,0.057770
-0.311126,4.088264,6.229237,-0.074682,0.022418,0.021287
0.246218,3.735094,6.173704,0.078769,-0.063318,0.064385
-0.264342,4.019855,6.073682,-0.022379,-0.017880,-0.048880
-0.128760,3.879096,6.233757,-0.043514,0.016141,-0.044493
0.085376,4.328639,5.992830,0.029611,-0.026519,-0.048521
0.026258,4.023872,5.969552,-0.021112,0.013468,-0.011094
-0.062261,4.301723,6.066440,0.001368,0.027848,0.043297
0.118928,4.212249,5.998855,-0.012404,-0.041769,0.003044
-0.005290,4.341833,5.728658,0.018826,-0.058429,-0.035624
-0.067192,4.657259,5.785210,-0.028767,-0.008313,-0.030441
0.020953,4.484108,5.976480,0.028282,-0.064205,-0.063189
0.156601,4.496448,5.584770,-0.013356,-0.007026,-0.058186
-0.025709,4.667878,5.468098,-0.024270,-0.016042,-0.015732
0.052658,4.892021,5.329251,0.006075,-0.026463,0.059113
-0.135378,4.727188,5.369112,0.019528,-0.032285,0.003780
0.239816,4.972769,5.469487,0.004961,0.048589,-0.024015
-0.031724,4.885604,5.116605,0.030694,0.001674,0.059663
0.093809,5.046286,5.379771,0.051636,0.007879,-0.010491
-0.025300,5.037743,5.180497,0.020264,-0.007218,0.067212
0.107028,4.945727,5.183060,0.003139,-0.016226,-0.018385
-0.002459,5.062514,4.779222,-0.048521,0.022262,-0.032800
-0.016377,5.430674,5.164978,0.043926,-0.051717,0.005090
0.042645,5.559786,4.893504,0.046009,-0.086090,0.080731
0.114396,5.337595,4.771546,-0.017011,0.005644,0.022858
-0.081301,5.211876,4.922390,0.029045,0.010955,0.039895
-0.076996,5.430364,4.560984,0.020763,0.070435,0.020893
-0.024523,5.805553,4.888475,0.078585,0.036043,-0.072230
-0.199304,5.618797,4.447740,0.104444,-0.022974,0.059822
0.118601,5.763120,4.430116,0.001072,0.042444,-0.027539
0.008709,5.738835,4.634855,0.025030,-0.010128,0.063160
0.065635,5.943902,4.055757,0.017547,0.037438,-0.086563
-0.008015,6.180905,4.469563,-0.003423,0.016422,0.008945
-0.221651,5.960706,4.100887,0.038446,-0.014636,0.001951
0.205332,6.095028,4.087575,0.047249,-0.091148,0.023574
0.004099,5.820228,3.984156,-0.013355,-0.036493,0.013462
0.004373,6.301990,3.816035,0.049098,0.041566,-0.005405
-0.045739,6.389069,3.809460,0.035030,0.034723,-0.003495
0.027502,6.343220,4.124001,-0.027723,-0.025409,0.033514
-0.027616,6.382108,3.955511,-0.001686,-0.041847,-0.067395
-0.159162,6.443592,3.732871,0.033273,-0.021871,0.013216
-0.016669,6.639304,3.788698,0.049588,-0.052357,-0.001805
-0.089842,6.621296,3.835693,-0.006828,0.015190,0.049566
-0.099764,6.689709,3.568302,-0.053178,0.022792,0.041261
-0.007561,6.544008,3.695414,-0.007455,-0.005498,0.016738
-0.092922,6.930212,3.386199,0.013793,0.023294,0.022451
-0.075061,7.020056,3.514671,-0.039279,0.039611,0.046671
0.025040,7.033216,3.295420,0.007443,-0.059766,-0.004590
-0.001004,6.929881,3.373175,0.007776,-0.045784,-0.014406
-0.083210,7.254892,3.161428,-0.056375,0.024292,0.006638
0.002461,7.235117,3.136833,-0.065831,0.014059,-0.002260
-0.035749,7.207864,3.175869,0.020657,-0.015661,-0.032059
-0.079542,7.263716,3.004487,-0.030834,-0.021527,0.000753
0.103750,7.334280,3.154889,0.005918,-0.007629,-0.016933
-0.018785,7.385137,2.852011,-0.014056,0.100309,-0.030829
-0.157997,7.356649,2.743496,-0.022319,0.131754,0.016841
0.136300,7.544478,2.683660,-0.055199,0.033707,-0.036402
0.147184,7.801991,2.827104,0.036362,-0.008438,-0.017592
-0.102371,7.623818,2.828748,0.064367,0.022656,0.038920
0.028937,7.718530,2.631942,0.017397,-0.017778,0.024454
0.120876,7.749468,2.506715,0.048369,0.005390,0.072066
0.111187,7.746205,2.416505,0.034019,0.008479,0.010059
-0.133727,7.834807,2.282093,0.005489,-0.050050,-0.003603
0.057254,7.981591,2.206495,0.008847,-0.016643,0.013507
0.006187,7.949996,2.270403,0.000852,0.030948,0.026524
0.135766,8.145524,2.129270,0.006686,-0.054689,0.071629
0.044813,7.979009,2.152647,-0.005676,-0.003235,-0.013701
0.372226,8.275102,2.008575,-0.019536,0.061762,0.055442
0.089233,8.554660,2.074508,0.017776,-0.004300,0.024765
-0.258673,8.492225,2.200784,0.002952,-0.007609,0.013524
0.074693,8.353462,1.860614,-0.017646,0.010091,0.008169
-0.153682,8.707349,1.646730,0.024117,-0.024765,0.028405
0.008909,8.523875,1.630503,-0.036252,-0.022903,-0.021157
0.178338,8.706621,1.563614,-0.042882,0.040626,-0.038762
-0.137427,8.536999,1.415205,-0.027957,0.050216,-0.022823
0.013435,8.946629,1.432758,-0.007526,-0.040481,0.033318
